PhotonEnergy(eV) Transmission
    0.0000      0.00000
    10.000      0.13949
    30.020      0.96410
    50.040      0.97175
    70.060      0.97773
    90.080      0.66414
    110.10      0.63324
    130.12      0.62997
    150.14      0.66656
    170.16      0.70424
    190.18      0.74976
    210.20      0.79468
    230.22      0.82806
    250.24      0.85174
    270.26      0.87165
    290.28      0.89161
    310.30      0.90758
    330.32      0.92050
    350.34      0.93107
    370.36      0.93936
    390.38      0.94600
    410.40      0.95165
    430.42      0.95650
    450.44      0.96093
    470.46      0.96485
    490.48      0.96824
    510.50      0.97124
    530.52      0.97389
    550.54      0.97621
    570.56      0.97829
    590.58      0.98017
    610.60      0.98184
    630.62      0.98332
    650.64      0.98470
    670.66      0.98594
    690.68      0.98697
    710.70      0.98788
    730.72      0.98874
    750.74      0.98952
    770.76      0.99024
    790.78      0.99089
    810.80      0.99149
    830.82      0.99203
    850.84      0.99253
    870.86      0.99299
    890.88      0.99341
    910.90      0.99380
    930.92      0.99416
    950.94      0.99449
    970.96      0.99479
    990.98      0.99508
    1011.0      0.99534
    1031.0      0.99558
    1051.0      0.99580
    1071.1      0.99601
    1091.1      0.99621
    1111.1      0.99640
    1131.1      0.99657
    1151.1      0.99673
    1171.2      0.99688
    1191.2      0.99703
    1211.2      0.99716
    1231.2      0.99728
    1251.2      0.99740
    1271.3      0.99751
    1291.3      0.99761
    1311.3      0.99771
    1331.3      0.99780
    1351.3      0.99789
    1371.4      0.99797
    1391.4      0.99805
    1411.4      0.99812
    1431.4      0.99819
    1451.4      0.99826
    1471.5      0.99832
    1491.5      0.99838
    1511.5      0.99845
    1531.5      0.99850
    1551.5      0.99856
    1571.6      0.98357
    1591.6      0.98405
    1611.6      0.98451
    1631.6      0.98495
    1651.6      0.98538
    1671.7      0.98579
    1691.7      0.98618
    1711.7      0.98655
    1731.7      0.98692
    1751.7      0.98728
    1771.8      0.98763
    1791.8      0.98796
    1811.8      0.98829
    1831.8      0.98860
    1851.8      0.98891
    1871.9      0.98920
    1891.9      0.98948
    1911.9      0.98975
    1931.9      0.99001
    1951.9      0.99026
    1972.0      0.99050
    1992.0      0.99074
    2012.0      0.99096
    2032.0      0.99118
    2052.0      0.99139
    2072.1      0.99160
    2092.1      0.99181
    2112.1      0.99200
    2132.1      0.99219
    2152.1      0.99238
    2172.2      0.99256
    2192.2      0.99273
    2212.2      0.99290
    2232.2      0.99306
    2252.2      0.99322
    2272.3      0.99338
    2292.3      0.99353
    2312.3      0.99367
    2332.3      0.99381
    2352.3      0.99395
    2372.4      0.99408
    2392.4      0.99421
    2412.4      0.99434
    2432.4      0.99446
    2452.4      0.99458
    2472.5      0.99469
    2492.5      0.99481
    2512.5      0.99491
    2532.5      0.99502
    2552.5      0.99512
    2572.6      0.99522
    2592.6      0.99532
    2612.6      0.99542
    2632.6      0.99551
    2652.6      0.99560
    2672.7      0.99569
    2692.7      0.99577
    2712.7      0.99586
    2732.7      0.99594
    2752.7      0.99602
    2772.8      0.99609
    2792.8      0.99617
    2812.8      0.99624
    2832.8      0.99631
    2852.8      0.99638
    2872.9      0.99645
    2892.9      0.99652
    2912.9      0.99658
    2932.9      0.99664
    2952.9      0.99671
    2973.0      0.99677
    2993.0      0.99682
    3013.0      0.99688
    3033.0      0.99694
    3053.0      0.99699
    3073.1      0.99705
    3093.1      0.99710
    3113.1      0.99715
    3133.1      0.99720
    3153.1      0.99725
    3173.2      0.99729
    3193.2      0.99734
    3213.2      0.99739
    3233.2      0.99743
    3253.2      0.99747
    3273.3      0.99752
    3293.3      0.99756
    3313.3      0.99760
    3333.3      0.99764
    3353.3      0.99768
    3373.4      0.99771
    3393.4      0.99775
    3413.4      0.99779
    3433.4      0.99782
    3453.4      0.99786
    3473.5      0.99789
    3493.5      0.99793
    3513.5      0.99796
    3533.5      0.99799
    3553.5      0.99802
    3573.6      0.99805
    3593.6      0.99808
    3613.6      0.99811
    3633.6      0.99814
    3653.6      0.99817
    3673.7      0.99820
    3693.7      0.99822
    3713.7      0.99825
    3733.7      0.99828
    3753.7      0.99830
    3773.8      0.99833
    3793.8      0.99835
    3813.8      0.99838
    3833.8      0.99840
    3853.8      0.99842
    3873.9      0.99845
    3893.9      0.99847
    3913.9      0.99849
    3933.9      0.99851
    3953.9      0.99853
    3974.0      0.99855
    3994.0      0.99857
    4014.0      0.99859
    4034.0      0.99861
    4054.0      0.99863
    4074.1      0.99865
    4094.1      0.99867
    4114.1      0.99869
    4134.1      0.99871
    4154.1      0.99872
    4174.2      0.99874
    4194.2      0.99876
    4214.2      0.99877
    4234.2      0.99879
    4254.2      0.99881
    4274.3      0.99882
    4294.3      0.99884
    4314.3      0.99885
    4334.3      0.99887
    4354.3      0.99888
    4374.4      0.99890
    4394.4      0.99891
    4414.4      0.99892
    4434.4      0.99894
    4454.4      0.99895
    4474.5      0.99897
    4494.5      0.99898
    4514.5      0.99899
    4534.5      0.99900
    4554.5      0.99902
    4574.6      0.99903
    4594.6      0.99904
    4614.6      0.99905
    4634.6      0.99906
    4654.6      0.99907
    4674.7      0.99909
    4694.7      0.99910
    4714.7      0.99911
    4734.7      0.99912
    4754.7      0.99913
    4774.8      0.99914
    4794.8      0.99915
    4814.8      0.99916
    4834.8      0.99917
    4854.8      0.99918
    4874.9      0.99919
    4894.9      0.99920
    4914.9      0.99921
    4934.9      0.99922
    4955.0      0.99923
    4975.0      0.99923
    4995.0      0.99924
    5015.0      0.99925
    5035.0      0.99926
    5055.1      0.99927
    5075.1      0.99928
    5095.1      0.99929
    5115.1      0.99929
    5135.1      0.99930
    5155.2      0.99931
    5175.2      0.99932
    5195.2      0.99932
    5215.2      0.99933
    5235.2      0.99934
    5255.3      0.99935
    5275.3      0.99935
    5295.3      0.99936
    5315.3      0.99937
    5335.3      0.99937
    5355.4      0.99938
    5375.4      0.99939
    5395.4      0.99939
    5415.4      0.99940
    5435.4      0.99941
    5455.5      0.99941
    5475.5      0.99942
    5495.5      0.99942
    5515.5      0.99943
    5535.5      0.99944
    5555.6      0.99944
    5575.6      0.99945
    5595.6      0.99945
    5615.6      0.99946
    5635.6      0.99947
    5655.7      0.99947
    5675.7      0.99948
    5695.7      0.99948
    5715.7      0.99949
    5735.7      0.99949
    5755.8      0.99950
    5775.8      0.99950
    5795.8      0.99951
    5815.8      0.99951
    5835.8      0.99952
    5855.9      0.99952
    5875.9      0.99953
    5895.9      0.99953
    5915.9      0.99954
    5935.9      0.99954
    5956.0      0.99954
    5976.0      0.99955
    5996.0      0.99955
    6016.0      0.99956
    6036.0      0.99956
    6056.1      0.99957
    6076.1      0.99957
    6096.1      0.99957
    6116.1      0.99958
    6136.1      0.99958
    6156.2      0.99959
    6176.2      0.99959
    6196.2      0.99959
    6216.2      0.99960
    6236.2      0.99960
    6256.3      0.99960
    6276.3      0.99961
    6296.3      0.99961
    6316.3      0.99962
    6336.3      0.99962
    6356.4      0.99962
    6376.4      0.99963
    6396.4      0.99963
    6416.4      0.99963
    6436.4      0.99964
    6456.5      0.99964
    6476.5      0.99964
    6496.5      0.99965
    6516.5      0.99965
    6536.5      0.99965
    6556.6      0.99965
    6576.6      0.99966
    6596.6      0.99966
    6616.6      0.99966
    6636.6      0.99967
    6656.7      0.99967
    6676.7      0.99967
    6696.7      0.99968
    6716.7      0.99968
    6736.7      0.99968
    6756.8      0.99968
    6776.8      0.99969
    6796.8      0.99969
    6816.8      0.99969
    6836.8      0.99969
    6856.9      0.99970
    6876.9      0.99970
    6896.9      0.99970
    6916.9      0.99970
    6936.9      0.99971
    6957.0      0.99971
    6977.0      0.99971
    6997.0      0.99971
    7017.0      0.99972
    7037.0      0.99972
    7057.1      0.99972
    7077.1      0.99972
    7097.1      0.99973
    7117.1      0.99973
    7137.1      0.99973
    7157.2      0.99973
    7177.2      0.99973
    7197.2      0.99974
    7217.2      0.99974
    7237.2      0.99974
    7257.3      0.99974
    7277.3      0.99975
    7297.3      0.99975
    7317.3      0.99975
    7337.3      0.99975
    7357.4      0.99975
    7377.4      0.99976
    7397.4      0.99976
    7417.4      0.99976
    7437.4      0.99976
    7457.5      0.99976
    7477.5      0.99976
    7497.5      0.99977
    7517.5      0.99977
    7537.5      0.99977
    7557.6      0.99977
    7577.6      0.99977
    7597.6      0.99978
    7617.6      0.99978
    7637.6      0.99978
    7657.7      0.99978
    7677.7      0.99978
    7697.7      0.99978
    7717.7      0.99979
    7737.7      0.99979
    7757.8      0.99979
    7777.8      0.99979
    7797.8      0.99979
    7817.8      0.99979
    7837.8      0.99979
    7857.9      0.99980
    7877.9      0.99980
    7897.9      0.99980
    7917.9      0.99980
    7937.9      0.99980
    7958.0      0.99980
    7978.0      0.99981
    7998.0      0.99981
    8018.0      0.99981
    8038.0      0.99981
    8058.1      0.99981
    8078.1      0.99981
    8098.1      0.99981
    8118.1      0.99981
    8138.1      0.99982
    8158.2      0.99982
    8178.2      0.99982
    8198.2      0.99982
    8218.2      0.99982
    8238.2      0.99982
    8258.3      0.99982
    8278.3      0.99983
    8298.3      0.99983
    8318.3      0.99983
    8338.3      0.99983
    8358.4      0.99983
    8378.4      0.99983
    8398.4      0.99983
    8418.4      0.99983
    8438.4      0.99983
    8458.5      0.99984
    8478.5      0.99984
    8498.5      0.99984
    8518.5      0.99984
    8538.5      0.99984
    8558.6      0.99984
    8578.6      0.99984
    8598.6      0.99984
    8618.6      0.99984
    8638.6      0.99985
    8658.7      0.99985
    8678.7      0.99985
    8698.7      0.99985
    8718.7      0.99985
    8738.7      0.99985
    8758.8      0.99985
    8778.8      0.99985
    8798.8      0.99985
    8818.8      0.99985
    8838.8      0.99986
    8858.9      0.99986
    8878.9      0.99986
    8898.9      0.99986
    8918.9      0.99986
    8938.9      0.99986
    8959.0      0.99986
    8979.0      0.99986
    8999.0      0.99986
    9019.0      0.99986
    9039.0      0.99986
    9059.1      0.99987
    9079.1      0.99987
    9099.1      0.99987
    9119.1      0.99987
    9139.1      0.99987
    9159.2      0.99987
    9179.2      0.99987
    9199.2      0.99987
    9219.2      0.99987
    9239.2      0.99987
    9259.3      0.99987
    9279.3      0.99988
    9299.3      0.99988
    9319.3      0.99988
    9339.3      0.99988
    9359.4      0.99988
    9379.4      0.99988
    9399.4      0.99988
    9419.4      0.99988
    9439.4      0.99988
    9459.5      0.99988
    9479.5      0.99988
    9499.5      0.99988
    9519.5      0.99988
    9539.5      0.99988
    9559.6      0.99989
    9579.6      0.99989
    9599.6      0.99989
    9619.6      0.99989
    9639.6      0.99989
    9659.7      0.99989
    9679.7      0.99989
    9699.7      0.99989
    9719.7      0.99989
    9739.7      0.99989
    9759.8      0.99989
    9779.8      0.99989
    9799.8      0.99989
    9819.8      0.99989
    9839.8      0.99989
    9859.9      0.99990
    9879.9      0.99990
    9899.9      0.99990
    9919.9      0.99990
    9939.9      0.99990
    9960.0      0.99990
    9980.0      0.99990
    10000.      0.99990
