PhotonEnergy(eV) Transmission  
    0.0000      0.00000
    10.000      0.29975E-06
    25.000      0.16889E-03
    40.000      0.20599E-01
    55.000      0.10745    
    70.000      0.22231    
    85.000      0.37057    
    100.00      0.28407    
    115.00      0.11135    
    130.00      0.75485E-01
    145.00      0.10292    
    160.00      0.11462    
    175.00      0.14459    
    190.00      0.19375    
    205.00      0.23499    
    220.00      0.27293    
    235.00      0.31673    
    250.00      0.35966    
    265.00      0.40300    
    280.00      0.44358    
    295.00      0.48126    
    310.00      0.51731    
    325.00      0.55126    
    340.00      0.58243    
    355.00      0.61095    
    370.00      0.63800    
    385.00      0.66495    
    400.00      0.68948    
    415.00      0.47947    
    430.00      0.50853    
    445.00      0.53587    
    460.00      0.56155    
    475.00      0.58599    
    490.00      0.60894    
    505.00      0.63040    
    520.00      0.65044    
    535.00      0.66916    
    550.00      0.68663    
    565.00      0.70310    
    580.00      0.71907    
    595.00      0.73435    
    610.00      0.74870    
    625.00      0.76208    
    640.00      0.77456    
    655.00      0.78621    
    670.00      0.79709    
    685.00      0.80726    
    700.00      0.81670    
    715.00      0.82539    
    730.00      0.83353    
    745.00      0.84117    
    760.00      0.84835    
    775.00      0.85516    
    790.00      0.86167    
    805.00      0.86791    
    820.00      0.87387    
    835.00      0.87947    
    850.00      0.88474    
    865.00      0.88969    
    880.00      0.89434    
    895.00      0.89873    
    910.00      0.90298    
    925.00      0.90705    
    940.00      0.91093    
    955.00      0.91460    
    970.00      0.91807    
    985.00      0.92136    
    1000.0      0.92447    
    1015.0      0.92743    
    1030.0      0.93022    
    1045.0      0.93289    
    1060.0      0.93543    
    1075.0      0.93785    
    1090.0      0.94014    
    1105.0      0.94227    
    1120.0      0.94427    
    1135.0      0.94618    
    1150.0      0.94800    
    1165.0      0.94974    
    1180.0      0.95140    
    1195.0      0.95299    
    1210.0      0.95451    
    1225.0      0.95596    
    1240.0      0.95736    
    1255.0      0.95870    
    1270.0      0.95999    
    1285.0      0.96124    
    1300.0      0.96243    
    1315.0      0.96358    
    1330.0      0.96468    
    1345.0      0.96574    
    1360.0      0.96675    
    1375.0      0.96773    
    1390.0      0.96867    
    1405.0      0.96957    
    1420.0      0.97043    
    1435.0      0.97127    
    1450.0      0.97207    
    1465.0      0.97284    
    1480.0      0.97359    
    1495.0      0.97430    
    1510.0      0.97501    
    1525.0      0.97568    
    1540.0      0.97634    
    1555.0      0.97697    
    1570.0      0.97758    
    1585.0      0.97816    
    1600.0      0.97873    
    1615.0      0.97927    
    1630.0      0.97980    
    1645.0      0.98031    
    1660.0      0.98081    
    1675.0      0.98128    
    1690.0      0.98174    
    1705.0      0.98219    
    1720.0      0.98262    
    1735.0      0.98304    
    1750.0      0.98345    
    1765.0      0.98385    
    1780.0      0.98423    
    1795.0      0.98461    
    1810.0      0.98497    
    1825.0      0.98532    
    1840.0      0.92481    
    1855.0      0.92623    
    1870.0      0.92762    
    1885.0      0.92897    
    1900.0      0.93028    
    1915.0      0.93156    
    1930.0      0.93281    
    1945.0      0.93403    
    1960.0      0.93521    
    1975.0      0.93637    
    1990.0      0.93750    
    2005.0      0.93860    
    2020.0      0.93968    
    2035.0      0.94074    
    2050.0      0.94177    
    2065.0      0.94277    
    2080.0      0.94376    
    2095.0      0.94473    
    2110.0      0.94569    
    2125.0      0.94662    
    2140.0      0.94754    
    2155.0      0.94843    
    2170.0      0.94930    
    2185.0      0.95016    
    2200.0      0.95100    
    2215.0      0.95182    
    2230.0      0.95262    
    2245.0      0.95341    
    2260.0      0.95417    
    2275.0      0.95493    
    2290.0      0.95566    
    2305.0      0.95639    
    2320.0      0.95709    
    2335.0      0.95779    
    2350.0      0.95846    
    2365.0      0.95913    
    2380.0      0.95978    
    2395.0      0.96042    
    2410.0      0.96104    
    2425.0      0.96165    
    2440.0      0.96225    
    2455.0      0.96284    
    2470.0      0.96342    
    2485.0      0.96398    
    2500.0      0.96454    
    2515.0      0.96508    
    2530.0      0.96561    
    2545.0      0.96613    
    2560.0      0.96664    
    2575.0      0.96714    
    2590.0      0.96763    
    2605.0      0.96812    
    2620.0      0.96859    
    2635.0      0.96905    
    2650.0      0.96951    
    2665.0      0.96995    
    2680.0      0.97039    
    2695.0      0.97082    
    2710.0      0.97124    
    2725.0      0.97166    
    2740.0      0.97206    
    2755.0      0.97246    
    2770.0      0.97285    
    2785.0      0.97324    
    2800.0      0.97361    
    2815.0      0.97398    
    2830.0      0.97435    
    2845.0      0.97470    
    2860.0      0.97505    
    2875.0      0.97540    
    2890.0      0.97574    
    2905.0      0.97607    
    2920.0      0.97639    
    2935.0      0.97671    
    2950.0      0.97703    
    2965.0      0.97734    
    2980.0      0.97764    
    2995.0      0.97794    
    3010.0      0.97823    
    3025.0      0.97852    
    3040.0      0.97880    
    3055.0      0.97908    
    3070.0      0.97936    
    3085.0      0.97962    
    3100.0      0.97989    
    3115.0      0.98015    
    3130.0      0.98040    
    3145.0      0.98066    
    3160.0      0.98090    
    3175.0      0.98115    
    3190.0      0.98138    
    3205.0      0.98162    
    3220.0      0.98185    
    3235.0      0.98208    
    3250.0      0.98230    
    3265.0      0.98252    
    3280.0      0.98274    
    3295.0      0.98295    
    3310.0      0.98316    
    3325.0      0.98336    
    3340.0      0.98357    
    3355.0      0.98377    
    3370.0      0.98396    
    3385.0      0.98416    
    3400.0      0.98435    
    3415.0      0.98453    
    3430.0      0.98472    
    3445.0      0.98490    
    3460.0      0.98508    
    3475.0      0.98525    
    3490.0      0.98543    
    3505.0      0.98560    
    3520.0      0.98576    
    3535.0      0.98593    
    3550.0      0.98609    
    3565.0      0.98625    
    3580.0      0.98641    
    3595.0      0.98657    
    3610.0      0.98672    
    3625.0      0.98687    
    3640.0      0.98702    
    3655.0      0.98717    
    3670.0      0.98731    
    3685.0      0.98745    
    3700.0      0.98759    
    3715.0      0.98773    
    3730.0      0.98787    
    3745.0      0.98800    
    3760.0      0.98813    
    3775.0      0.98826    
    3790.0      0.98839    
    3805.0      0.98852    
    3820.0      0.98864    
    3835.0      0.98876    
    3850.0      0.98888    
    3865.0      0.98900    
    3880.0      0.98912    
    3895.0      0.98924    
    3910.0      0.98935    
    3925.0      0.98947    
    3940.0      0.98958    
    3955.0      0.98969    
    3970.0      0.98979    
    3985.0      0.98990    
    4000.0      0.99001    
    4015.0      0.99011    
    4030.0      0.99021    
    4045.0      0.99031    
    4060.0      0.99041    
    4075.0      0.99051    
    4090.0      0.99061    
    4105.0      0.99070    
    4120.0      0.99080    
    4135.0      0.99089    
    4150.0      0.99098    
    4165.0      0.99107    
    4180.0      0.99116    
    4195.0      0.99125    
    4210.0      0.99134    
    4225.0      0.99142    
    4240.0      0.99151    
    4255.0      0.99159    
    4270.0      0.99168    
    4285.0      0.99176    
    4300.0      0.99184    
    4315.0      0.99192    
    4330.0      0.99200    
    4345.0      0.99207    
    4360.0      0.99215    
    4375.0      0.99223    
    4390.0      0.99230    
    4405.0      0.99237    
    4420.0      0.99245    
    4435.0      0.99252    
    4450.0      0.99259    
    4465.0      0.99266    
    4480.0      0.99273    
    4495.0      0.99280    
    4510.0      0.99286    
    4525.0      0.99293    
    4540.0      0.99300    
    4555.0      0.99306    
    4570.0      0.99312    
    4585.0      0.99319    
    4600.0      0.99325    
    4615.0      0.99331    
    4630.0      0.99337    
    4645.0      0.99343    
    4660.0      0.99349    
    4675.0      0.99355    
    4690.0      0.99361    
    4705.0      0.99367    
    4720.0      0.99372    
    4735.0      0.99378    
    4750.0      0.99384    
    4765.0      0.99389    
    4780.0      0.99395    
    4795.0      0.99400    
    4810.0      0.99405    
    4825.0      0.99410    
    4840.0      0.99416    
    4855.0      0.99421    
    4870.0      0.99426    
    4885.0      0.99431    
    4900.0      0.99436    
    4915.0      0.99441    
    4930.0      0.99445    
    4945.0      0.99450    
    4960.0      0.99455    
    4975.0      0.99460    
    4990.0      0.99464    
    5005.0      0.99469    
    5020.0      0.99473    
    5035.0      0.99478    
    5050.0      0.99482    
    5065.0      0.99486    
    5080.0      0.99491    
    5095.0      0.99495    
    5110.0      0.99499    
    5125.0      0.99503    
    5140.0      0.99508    
    5155.0      0.99512    
    5170.0      0.99516    
    5185.0      0.99520    
    5200.0      0.99524    
    5215.0      0.99527    
    5230.0      0.99531    
    5245.0      0.99535    
    5260.0      0.99539    
    5275.0      0.99543    
    5290.0      0.99546    
    5305.0      0.99550    
    5320.0      0.99554    
    5335.0      0.99557    
    5350.0      0.99561    
    5365.0      0.99564    
    5380.0      0.99568    
    5395.0      0.99571    
    5410.0      0.99575    
    5425.0      0.99578    
    5440.0      0.99581    
    5455.0      0.99585    
    5470.0      0.99588    
    5485.0      0.99591    
    5500.0      0.99594    
    5515.0      0.99597    
    5530.0      0.99600    
    5545.0      0.99604    
    5560.0      0.99607    
    5575.0      0.99610    
    5590.0      0.99613    
    5605.0      0.99616    
    5620.0      0.99619    
    5635.0      0.99621    
    5650.0      0.99624    
    5665.0      0.99627    
    5680.0      0.99630    
    5695.0      0.99633    
    5710.0      0.99636    
    5725.0      0.99638    
    5740.0      0.99641    
    5755.0      0.99644    
    5770.0      0.99646    
    5785.0      0.99649    
    5800.0      0.99652    
    5815.0      0.99654    
    5830.0      0.99657    
    5845.0      0.99659    
    5860.0      0.99662    
    5875.0      0.99664    
    5890.0      0.99667    
    5905.0      0.99669    
    5920.0      0.99672    
    5935.0      0.99674    
    5950.0      0.99676    
    5965.0      0.99679    
    5980.0      0.99681    
    5995.0      0.99683    
    6010.0      0.99686    
    6025.0      0.99688    
    6040.0      0.99690    
    6055.0      0.99692    
    6070.0      0.99694    
    6085.0      0.99697    
    6100.0      0.99699    
    6115.0      0.99701    
    6130.0      0.99703    
    6145.0      0.99705    
    6160.0      0.99707    
    6175.0      0.99709    
    6190.0      0.99711    
    6205.0      0.99713    
    6220.0      0.99715    
    6235.0      0.99717    
    6250.0      0.99719    
    6265.0      0.99721    
    6280.0      0.99723    
    6295.0      0.99725    
    6310.0      0.99727    
    6325.0      0.99729    
    6340.0      0.99730    
    6355.0      0.99732    
    6370.0      0.99734    
    6385.0      0.99736    
    6400.0      0.99738    
    6415.0      0.99739    
    6430.0      0.99741    
    6445.0      0.99743    
    6460.0      0.99745    
    6475.0      0.99746    
    6490.0      0.99748    
    6505.0      0.99750    
    6520.0      0.99751    
    6535.0      0.99753    
    6550.0      0.99755    
    6565.0      0.99756    
    6580.0      0.99758    
    6595.0      0.99760    
    6610.0      0.99761    
    6625.0      0.99763    
    6640.0      0.99764    
    6655.0      0.99766    
    6670.0      0.99767    
    6685.0      0.99769    
    6700.0      0.99770    
    6715.0      0.99772    
    6730.0      0.99773    
    6745.0      0.99775    
    6760.0      0.99776    
    6775.0      0.99778    
    6790.0      0.99779    
    6805.0      0.99780    
    6820.0      0.99782    
    6835.0      0.99783    
    6850.0      0.99785    
    6865.0      0.99786    
    6880.0      0.99787    
    6895.0      0.99789    
    6910.0      0.99790    
    6925.0      0.99791    
    6940.0      0.99793    
    6955.0      0.99794    
    6970.0      0.99795    
    6985.0      0.99796    
    7000.0      0.99798    
    7015.0      0.99799    
    7030.0      0.99800    
    7045.0      0.99801    
    7060.0      0.99803    
    7075.0      0.99804    
    7090.0      0.99805    
    7105.0      0.99806    
    7120.0      0.99807    
    7135.0      0.99809    
    7150.0      0.99810    
    7165.0      0.99811    
    7180.0      0.99812    
    7195.0      0.99813    
    7210.0      0.99814    
    7225.0      0.99816    
    7240.0      0.99817    
    7255.0      0.99818    
    7270.0      0.99819    
    7285.0      0.99820    
    7300.0      0.99821    
    7315.0      0.99822    
    7330.0      0.99823    
    7345.0      0.99824    
    7360.0      0.99825    
    7375.0      0.99826    
    7390.0      0.99827    
    7405.0      0.99828    
    7420.0      0.99829    
    7435.0      0.99830    
    7450.0      0.99831    
    7465.0      0.99832    
    7480.0      0.99833    
    7495.0      0.99834 
    7510.0      0.99835    
    7525.1      0.99836    
    7540.1      0.99837    
    7555.2      0.99838    
    7570.2      0.99839    
    7585.2      0.99840    
    7600.3      0.99841    
    7615.3      0.99842    
    7630.4      0.99843    
    7645.4      0.99844    
    7660.4      0.99844    
    7675.5      0.99845    
    7690.5      0.99846    
    7705.6      0.99847    
    7720.6      0.99848    
    7735.6      0.99849    
    7750.7      0.99850    
    7765.7      0.99851    
    7780.8      0.99851    
    7795.8      0.99852    
    7810.8      0.99853    
    7825.9      0.99854    
    7840.9      0.99855    
    7856.0      0.99855    
    7871.0      0.99856    
    7886.0      0.99857    
    7901.1      0.99858    
    7916.1      0.99859    
    7931.2      0.99859    
    7946.2      0.99860    
    7961.2      0.99861    
    7976.3      0.99862    
    7991.3      0.99863    
    8006.4      0.99863    
    8021.4      0.99864    
    8036.4      0.99865    
    8051.5      0.99866    
    8066.5      0.99866    
    8081.6      0.99867    
    8096.6      0.99868    
    8111.6      0.99868    
    8126.7      0.99869    
    8141.7      0.99870    
    8156.8      0.99871    
    8171.8      0.99871    
    8186.8      0.99872    
    8201.9      0.99873    
    8216.9      0.99873    
    8232.0      0.99874    
    8247.0      0.99875    
    8262.0      0.99875    
    8277.1      0.99876    
    8292.1      0.99877    
    8307.2      0.99877    
    8322.2      0.99878    
    8337.2      0.99879    
    8352.3      0.99879    
    8367.3      0.99880    
    8382.4      0.99880    
    8397.4      0.99881    
    8412.4      0.99882    
    8427.5      0.99882    
    8442.5      0.99883    
    8457.6      0.99884    
    8472.6      0.99884    
    8487.6      0.99885    
    8502.7      0.99885    
    8517.7      0.99886    
    8532.8      0.99887    
    8547.8      0.99887    
    8562.8      0.99888    
    8577.9      0.99888    
    8592.9      0.99889    
    8608.0      0.99889    
    8623.0      0.99890    
    8638.0      0.99891    
    8653.1      0.99891    
    8668.1      0.99892    
    8683.2      0.99892    
    8698.2      0.99893    
    8713.2      0.99893    
    8728.3      0.99894    
    8743.3      0.99894    
    8758.4      0.99895    
    8773.4      0.99895    
    8788.4      0.99896    
    8803.5      0.99896    
    8818.5      0.99897    
    8833.6      0.99897    
    8848.6      0.99898    
    8863.6      0.99899    
    8878.7      0.99899    
    8893.7      0.99900    
    8908.8      0.99900    
    8923.8      0.99901    
    8938.8      0.99901    
    8953.9      0.99901    
    8968.9      0.99902    
    8984.0      0.99902    
    8999.0      0.99903    
    9014.0      0.99903    
    9029.1      0.99904    
    9044.1      0.99904    
    9059.2      0.99905    
    9074.2      0.99905    
    9089.2      0.99906    
    9104.3      0.99906    
    9119.3      0.99907    
    9134.4      0.99907    
    9149.4      0.99908    
    9164.4      0.99908    
    9179.5      0.99908    
    9194.5      0.99909    
    9209.6      0.99909    
    9224.6      0.99910    
    9239.6      0.99910    
    9254.7      0.99911    
    9269.7      0.99911    
    9284.8      0.99911    
    9299.8      0.99912    
    9314.8      0.99912    
    9329.9      0.99913    
    9344.9      0.99913    
    9360.0      0.99914    
    9375.0      0.99914    
    9390.0      0.99914    
    9405.1      0.99915    
    9420.1      0.99915    
    9435.2      0.99916    
    9450.2      0.99916    
    9465.3      0.99916    
    9480.3      0.99917    
    9495.3      0.99917    
    9510.4      0.99917    
    9525.4      0.99918    
    9540.5      0.99918    
    9555.5      0.99919    
    9570.5      0.99919    
    9585.6      0.99919    
    9600.6      0.99920    
    9615.7      0.99920    
    9630.7      0.99920    
    9645.7      0.99921    
    9660.8      0.99921    
    9675.8      0.99922    
    9690.9      0.99922    
    9705.9      0.99922    
    9720.9      0.99923    
    9736.0      0.99923    
    9751.0      0.99923    
    9766.1      0.99924    
    9781.1      0.99924    
    9796.1      0.99924    
    9811.2      0.99925    
    9826.2      0.99925    
    9841.3      0.99925    
    9856.3      0.99926    
    9871.3      0.99926    
    9886.4      0.99926    
    9901.4      0.99927    
    9916.5      0.99927    
    9931.5      0.99927    
    9946.5      0.99928    
    9961.6      0.99928    
    9976.6      0.99928    
    9991.7      0.99929    
    10007.      0.99929    
    10022.      0.99929    
    10037.      0.99930    
    10052.      0.99930    
    10067.      0.99930    
    10082.      0.99931    
    10097.      0.99931    
    10112.      0.99931    
    10127.      0.99931    
    10142.      0.99932    
    10157.      0.99932    
    10172.      0.99932    
    10187.      0.99933    
    10202.      0.99933    
    10217.      0.99933    
    10232.      0.99933    
    10247.      0.99934    
    10262.      0.99934    
    10277.      0.99934    
    10292.      0.99935    
    10307.      0.99935    
    10323.      0.99935    
    10338.      0.99935    
    10353.      0.99936    
    10368.      0.99936    
    10383.      0.99936    
    10398.      0.99937    
    10413.      0.99937    
    10428.      0.99937    
    10443.      0.99937    
    10458.      0.99938    
    10473.      0.99938    
    10488.      0.99938    
    10503.      0.99938    
    10518.      0.99939    
    10533.      0.99939    
    10548.      0.99939    
    10563.      0.99939    
    10578.      0.99940    
    10593.      0.99940    
    10608.      0.99940    
    10623.      0.99940    
    10638.      0.99941    
    10653.      0.99941    
    10668.      0.99941    
    10683.      0.99941    
    10699.      0.99942    
    10714.      0.99942    
    10729.      0.99942    
    10744.      0.99942    
    10759.      0.99943    
    10774.      0.99943    
    10789.      0.99943    
    10804.      0.99943    
    10819.      0.99944    
    10834.      0.99944    
    10849.      0.99944    
    10864.      0.99944    
    10879.      0.99944    
    10894.      0.99945    
    10909.      0.99945    
    10924.      0.99945    
    10939.      0.99945    
    10954.      0.99946    
    10969.      0.99946    
    10984.      0.99946    
    10999.      0.99946    
    11014.      0.99946    
    11029.      0.99947    
    11044.      0.99947    
    11059.      0.99947    
    11075.      0.99947    
    11090.      0.99948    
    11105.      0.99948    
    11120.      0.99948    
    11135.      0.99948    
    11150.      0.99948    
    11165.      0.99949    
    11180.      0.99949    
    11195.      0.99949    
    11210.      0.99949    
    11225.      0.99949    
    11240.      0.99950    
    11255.      0.99950    
    11270.      0.99950    
    11285.      0.99950    
    11300.      0.99950    
    11315.      0.99951    
    11330.      0.99951    
    11345.      0.99951    
    11360.      0.99951    
    11375.      0.99951    
    11390.      0.99952    
    11405.      0.99952    
    11420.      0.99952    
    11436.      0.99952    
    11451.      0.99952    
    11466.      0.99952    
    11481.      0.99953    
    11496.      0.99953    
    11511.      0.99953    
    11526.      0.99953    
    11541.      0.99953    
    11556.      0.99954    
    11571.      0.99954    
    11586.      0.99954    
    11601.      0.99954    
    11616.      0.99954    
    11631.      0.99954    
    11646.      0.99955    
    11661.      0.99955    
    11676.      0.99955    
    11691.      0.99955    
    11706.      0.99955    
    11721.      0.99955    
    11736.      0.99956    
    11751.      0.99956    
    11766.      0.99956    
    11781.      0.99956    
    11796.      0.99956    
    11812.      0.99956    
    11827.      0.99957    
    11842.      0.99957    
    11857.      0.99957    
    11872.      0.99957    
    11887.      0.99957    
    11902.      0.99957    
    11917.      0.99958    
    11932.      0.99958    
    11947.      0.99958    
    11962.      0.99958    
    11977.      0.99958    
    11992.      0.99958    
    12007.      0.99959    
    12022.      0.99959    
    12037.      0.99959    
    12052.      0.99959    
    12067.      0.99959    
    12082.      0.99959    
    12097.      0.99959    
    12112.      0.99960    
    12127.      0.99960    
    12142.      0.99960    
    12157.      0.99960    
    12172.      0.99960    
    12188.      0.99960    
    12203.      0.99960    
    12218.      0.99961    
    12233.      0.99961    
    12248.      0.99961    
    12263.      0.99961    
    12278.      0.99961    
    12293.      0.99961    
    12308.      0.99961    
    12323.      0.99962    
    12338.      0.99962    
    12353.      0.99962    
    12368.      0.99962    
    12383.      0.99962    
    12398.      0.99962    
    12413.      0.99962    
    12428.      0.99963    
    12443.      0.99963    
    12458.      0.99963    
    12473.      0.99963    
    12488.      0.99963    
    12503.      0.99963    
    12518.      0.99963    
    12533.      0.99963    
    12548.      0.99964    
    12564.      0.99964    
    12579.      0.99964    
    12594.      0.99964    
    12609.      0.99964    
    12624.      0.99964    
    12639.      0.99964    
    12654.      0.99964    
    12669.      0.99965    
    12684.      0.99965    
    12699.      0.99965    
    12714.      0.99965    
    12729.      0.99965    
    12744.      0.99965    
    12759.      0.99965    
    12774.      0.99965    
    12789.      0.99966    
    12804.      0.99966    
    12819.      0.99966    
    12834.      0.99966    
    12849.      0.99966    
    12864.      0.99966    
    12879.      0.99966    
    12894.      0.99966    
    12909.      0.99967    
    12924.      0.99967    
    12940.      0.99967    
    12955.      0.99967    
    12970.      0.99967    
    12985.      0.99967    
    13000.      0.99967    
    13015.      0.99967    
    13030.      0.99967    
    13045.      0.99968    
    13060.      0.99968    
    13075.      0.99968    
    13090.      0.99968    
    13105.      0.99968    
    13120.      0.99968    
    13135.      0.99968    
    13150.      0.99968    
    13165.      0.99968    
    13180.      0.99969    
    13195.      0.99969    
    13210.      0.99969    
    13225.      0.99969    
    13240.      0.99969    
    13255.      0.99969    
    13270.      0.99969    
    13285.      0.99969    
    13300.      0.99969    
    13316.      0.99969    
    13331.      0.99970    
    13346.      0.99970    
    13361.      0.99970    
    13376.      0.99970    
    13391.      0.99970    
    13406.      0.99970    
    13421.      0.99970    
    13436.      0.99970    
    13451.      0.99970    
    13466.      0.99970    
    13481.      0.99971    
    13496.      0.99971    
    13511.      0.99971    
    13526.      0.99971    
    13541.      0.99971    
    13556.      0.99971    
    13571.      0.99971    
    13586.      0.99971    
    13601.      0.99971    
    13616.      0.99971    
    13631.      0.99971    
    13646.      0.99972    
    13661.      0.99972    
    13676.      0.99972    
    13692.      0.99972    
    13707.      0.99972    
    13722.      0.99972    
    13737.      0.99972    
    13752.      0.99972    
    13767.      0.99972    
    13782.      0.99972    
    13797.      0.99972    
    13812.      0.99973    
    13827.      0.99973    
    13842.      0.99973    
    13857.      0.99973    
    13872.      0.99973    
    13887.      0.99973    
    13902.      0.99973    
    13917.      0.99973    
    13932.      0.99973    
    13947.      0.99973    
    13962.      0.99973    
    13977.      0.99974    
    13992.      0.99974    
    14007.      0.99974    
    14022.      0.99974    
    14037.      0.99974    
    14052.      0.99974    
    14068.      0.99974    
    14083.      0.99974    
    14098.      0.99974    
    14113.      0.99974    
    14128.      0.99974    
    14143.      0.99974    
    14158.      0.99975    
    14173.      0.99975    
    14188.      0.99975    
    14203.      0.99975    
    14218.      0.99975    
    14233.      0.99975    
    14248.      0.99975    
    14263.      0.99975    
    14278.      0.99975    
    14293.      0.99975    
    14308.      0.99975    
    14323.      0.99975    
    14338.      0.99975    
    14353.      0.99976    
    14368.      0.99976    
    14383.      0.99976    
    14398.      0.99976    
    14413.      0.99976    
    14428.      0.99976    
    14444.      0.99976    
    14459.      0.99976    
    14474.      0.99976    
    14489.      0.99976    
    14504.      0.99976    
    14519.      0.99976    
    14534.      0.99976    
    14549.      0.99976    
    14564.      0.99977    
    14579.      0.99977    
    14594.      0.99977    
    14609.      0.99977    
    14624.      0.99977    
    14639.      0.99977    
    14654.      0.99977    
    14669.      0.99977    
    14684.      0.99977    
    14699.      0.99977    
    14714.      0.99977    
    14729.      0.99977    
    14744.      0.99977    
    14759.      0.99977    
    14774.      0.99978    
    14789.      0.99978    
    14804.      0.99978    
    14820.      0.99978    
    14835.      0.99978    
    14850.      0.99978    
    14865.      0.99978    
    14880.      0.99978    
    14895.      0.99978    
    14910.      0.99978    
    14925.      0.99978    
    14940.      0.99978    
    14955.      0.99978    
    14970.      0.99978    
    14985.      0.99978    
    15000.      0.99979      
