PhotonEnergy(eV) Transmission
    0.0000      0.00000
    10.000      0.00000
    30.020      0.00000
    50.040      0.00000
    70.060      0.00000
    90.080      0.00000
    110.10      0.00000
    130.12      0.00000
    150.14      0.00000
    170.16      0.00000
    190.18      0.00000
    210.20      0.00000
    230.22      0.00000
    250.24      0.00000
    270.26      0.00000
    290.28      0.00000
    310.30      0.00000
    330.32      0.00000
    350.34      0.00000
    370.36      0.00000
    390.38      0.00000
    410.40      0.00000
    430.42      0.00000
    450.44      0.00000
    470.46      0.00000
    490.48      0.00000
    510.50      0.00000
    530.52      0.00000
    550.54      0.00000
    570.56      0.00000
    590.58      0.00000
    610.60      0.00000
    630.62      0.00000
    650.64      0.00000
    670.66      0.00000
    690.68      0.00000
    710.70      0.00000
    730.72      0.00000
    750.74      0.00000
    770.76      0.00000
    790.78      0.00000
    810.80      0.00000
    830.82      0.00000
    850.84      0.00000
    870.86      0.00000
    890.88      0.00000
    910.90      0.25644E-42
    930.92      0.10694E-39
    950.94      0.27325E-37
    970.96      0.45011E-35
    990.98      0.49960E-33
    1011.0      0.38922E-31
    1031.0      0.21972E-29
    1051.0      0.92194E-28
    1071.1      0.29577E-26
    1091.1      0.70782E-25
    1111.1      0.11550E-23
    1131.1      0.14732E-22
    1151.1      0.16049E-21
    1171.2      0.15096E-20
    1191.2      0.12407E-19
    1211.2      0.90265E-19
    1231.2      0.58612E-18
    1251.2      0.34180E-17
    1271.3      0.18024E-16
    1291.3      0.86611E-16
    1311.3      0.38442E-15
    1331.3      0.15762E-14
    1351.3      0.59952E-14
    1371.4      0.21243E-13
    1391.4      0.70553E-13
    1411.4      0.22076E-12
    1431.4      0.65281E-12
    1451.4      0.18300E-11
    1471.5      0.48741E-11
    1491.5      0.12380E-10
    1511.5      0.30653E-10
    1531.5      0.73154E-10
    1551.5      0.16762E-09
    1571.6      0.36955E-09
    1591.6      0.78467E-09
    1611.6      0.16089E-08
    1631.6      0.31924E-08
    1651.6      0.61408E-08
    1671.7      0.11469E-07
    1691.7      0.20835E-07
    1711.7      0.36869E-07
    1731.7      0.63791E-07
    1751.7      0.10921E-06
    1771.8      0.18306E-06
    1791.8      0.30059E-06
    1811.8      0.48411E-06
    1831.8      0.76412E-06
    1851.8      0.00000
    1871.9      0.00000
    1891.9      0.00000
    1911.9      0.00000
    1931.9      0.00000
    1951.9      0.00000
    1972.0      0.00000
    1992.0      0.00000
    2012.0      0.00000
    2032.0      0.00000
    2052.0      0.00000
    2072.1      0.00000
    2092.1      0.00000
    2112.1      0.00000
    2132.1      0.00000
    2152.1      0.00000
    2172.2      0.00000
    2192.2      0.14013E-44
    2212.2      0.16816E-43
    2232.2      0.16115E-42
    2252.2      0.14349E-41
    2272.3      0.12061E-40
    2292.3      0.95124E-40
    2312.3      0.71130E-39
    2332.3      0.50118E-38
    2352.3      0.33460E-37
    2372.4      0.21184E-36
    2392.4      0.12791E-35
    2412.4      0.73394E-35
    2432.4      0.40133E-34
    2452.4      0.20964E-33
    2472.5      0.10484E-32
    2492.5      0.50208E-32
    2512.5      0.23069E-31
    2532.5      0.10168E-30
    2552.5      0.43065E-30
    2572.6      0.17579E-29
    2592.6      0.69297E-29
    2612.6      0.26338E-28
    2632.6      0.96706E-28
    2652.6      0.34306E-27
    2672.7      0.11787E-26
    2692.7      0.39219E-26
    2712.7      0.12709E-25
    2732.7      0.39922E-25
    2752.7      0.12189E-24
    2772.8      0.36150E-24
    2792.8      0.10445E-23
    2812.8      0.29387E-23
    2832.8      0.80653E-23
    2852.8      0.21612E-22
    2872.9      0.56508E-22
    2892.9      0.14445E-21
    2912.9      0.36068E-21
    2932.9      0.88305E-21
    2952.9      0.21151E-20
    2973.0      0.49624E-20
    2993.0      0.11409E-19
    3013.0      0.25715E-19
    3033.0      0.56934E-19
    3053.0      0.12368E-18
    3073.1      0.26414E-18
    3093.1      0.55443E-18
    3113.1      0.11438E-17
    3133.1      0.23217E-17
    3153.1      0.46353E-17
    3173.2      0.91229E-17
    3193.2      0.17685E-16
    3213.2      0.33777E-16
    3233.2      0.63624E-16
    3253.2      0.11814E-15
    3273.3      0.21645E-15
    3293.3      0.39137E-15
    3313.3      0.69835E-15
    3333.3      0.12325E-14
    3353.3      0.21483E-14
    3373.4      0.36997E-14
    3393.4      0.62984E-14
    3413.4      0.10600E-13
    3433.4      0.17650E-13
    3453.4      0.29082E-13
    3473.5      0.47409E-13
    3493.5      0.76555E-13
    3513.5      0.12239E-12
    3533.5      0.19374E-12
    3553.5      0.30390E-12
    3573.6      0.47226E-12
    3593.6      0.72732E-12
    3613.6      0.11115E-11
    3633.6      0.16837E-11
    3653.6      0.25294E-11
    3673.7      0.37699E-11
    3693.7      0.55733E-11
    3713.7      0.81763E-11
    3733.7      0.11908E-10
    3753.7      0.17212E-10
    3773.8      0.24706E-10
    3793.8      0.35235E-10
    3813.8      0.49901E-10
    3833.8      0.70195E-10
    3853.8      0.98107E-10
    3873.9      0.13623E-09
    3893.9      0.18800E-09
    3913.9      0.25799E-09
    3933.9      0.35191E-09
    3953.9      0.47719E-09
    3974.0      0.64367E-09
    3994.0      0.86331E-09
    4014.0      0.11515E-08
    4034.0      0.15282E-08
    4054.0      0.20174E-08
    4074.1      0.26496E-08
    4094.1      0.34639E-08
    4114.1      0.45074E-08
    4134.1      0.58372E-08
    4154.1      0.75240E-08
    4174.2      0.96555E-08
    4194.2      0.12335E-07
    4214.2      0.15689E-07
    4234.2      0.19876E-07
    4254.2      0.25075E-07
    4274.3      0.31504E-07
    4294.3      0.39431E-07
    4314.3      0.49170E-07
    4334.3      0.61076E-07
    4354.3      0.75581E-07
    4374.4      0.93204E-07
    4394.4      0.11452E-06
    4414.4      0.14022E-06
    4434.4      0.17112E-06
    4454.4      0.20816E-06
    4474.5      0.25238E-06
    4494.5      0.30500E-06
    4514.5      0.36749E-06
    4534.5      0.44141E-06
    4554.5      0.52858E-06
    4574.6      0.63112E-06
    4594.6      0.75144E-06
    4614.6      0.89213E-06
    4634.6      0.10562E-05
    4654.6      0.12472E-05
    4674.7      0.14690E-05
    4694.7      0.17256E-05
    4714.7      0.20218E-05
    4734.7      0.23630E-05
    4754.7      0.27548E-05
    4774.8      0.32039E-05
    4794.8      0.37173E-05
    4814.8      0.43034E-05
    4834.8      0.49703E-05
    4854.8      0.57276E-05
    4874.9      0.65859E-05
    4894.9      0.75575E-05
    4914.9      0.86540E-05
    4934.9      0.98889E-05
    4955.0      0.11277E-04
    4975.0      0.12835E-04
    4995.0      0.14579E-04
    5015.0      0.16528E-04
    5035.0      0.18704E-04
    5055.1      0.21131E-04
    5075.1      0.23830E-04
    5095.1      0.26824E-04
    5115.1      0.30141E-04
    5135.1      0.33812E-04
    5155.2      0.37865E-04
    5175.2      0.42332E-04
    5195.2      0.47250E-04
    5215.2      0.52655E-04
    5235.2      0.58587E-04
    5255.3      0.65084E-04
    5275.3      0.72192E-04
    5295.3      0.79968E-04
    5315.3      0.88453E-04
    5335.3      0.97696E-04
    5355.4      0.10775E-03
    5375.4      0.11868E-03
    5395.4      0.13054E-03
    5415.4      0.14339E-03
    5435.4      0.15730E-03
    5455.5      0.17234E-03
    5475.5      0.18860E-03
    5495.5      0.20612E-03
    5515.5      0.22500E-03
    5535.5      0.24531E-03
    5555.6      0.26715E-03
    5575.6      0.29060E-03
    5595.6      0.31574E-03
    5615.6      0.34267E-03
    5635.6      0.37149E-03
    5655.7      0.40231E-03
    5675.7      0.43521E-03
    5695.7      0.47031E-03
    5715.7      0.50770E-03
    5735.7      0.54754E-03
    5755.8      0.58991E-03
    5775.8      0.63493E-03
    5795.8      0.68271E-03
    5815.8      0.73339E-03
    5835.8      0.78712E-03
    5855.9      0.84400E-03
    5875.9      0.90417E-03
    5895.9      0.96775E-03
    5915.9      0.10349E-02
    5935.9      0.11059E-02
    5956.0      0.11807E-02
    5976.0      0.12594E-02
    5996.0      0.13424E-02
    6016.0      0.14296E-02
    6036.0      0.15214E-02
    6056.1      0.16177E-02
    6076.1      0.17188E-02
    6096.1      0.18249E-02
    6116.1      0.19360E-02
    6136.1      0.20524E-02
    6156.2      0.21742E-02
    6176.2      0.23015E-02
    6196.2      0.24346E-02
    6216.2      0.25737E-02
    6236.2      0.27189E-02
    6256.3      0.28703E-02
    6276.3      0.30280E-02
    6296.3      0.31924E-02
    6316.3      0.33635E-02
    6336.3      0.35416E-02
    6356.4      0.37270E-02
    6376.4      0.39201E-02
    6396.4      0.41207E-02
    6416.4      0.43290E-02
    6436.4      0.45450E-02
    6456.5      0.47686E-02
    6476.5      0.50004E-02
    6496.5      0.52405E-02
    6516.5      0.54891E-02
    6536.5      0.57463E-02
    6556.6      0.60126E-02
    6576.6      0.62878E-02
    6596.6      0.65722E-02
    6616.6      0.68658E-02
    6636.6      0.71689E-02
    6656.7      0.74821E-02
    6676.7      0.78053E-02
    6696.7      0.81383E-02
    6716.7      0.84815E-02
    6736.7      0.88349E-02
    6756.8      0.91988E-02
    6776.8      0.95735E-02
    6796.8      0.99589E-02
    6816.8      0.10355E-01
    6836.8      0.10762E-01
    6856.9      0.11181E-01
    6876.9      0.11610E-01
    6896.9      0.12052E-01
    6916.9      0.12504E-01
    6936.9      0.12969E-01
    6957.0      0.13445E-01
    6977.0      0.13933E-01
    6997.0      0.14434E-01
    7017.0      0.14946E-01
    7037.0      0.15471E-01
    7057.1      0.16009E-01
    7077.1      0.16558E-01
    7097.1      0.17121E-01
    7117.1      0.17696E-01
    7137.1      0.18285E-01
    7157.2      0.18886E-01
    7177.2      0.19499E-01
    7197.2      0.20126E-01
    7217.2      0.20766E-01
    7237.2      0.21420E-01
    7257.3      0.22087E-01
    7277.3      0.22767E-01
    7297.3      0.23460E-01
    7317.3      0.24167E-01
    7337.3      0.24888E-01
    7357.4      0.25623E-01
    7377.4      0.26371E-01
    7397.4      0.27133E-01
    7417.4      0.27908E-01
    7437.4      0.28697E-01
    7457.5      0.29501E-01
    7477.5      0.30318E-01
    7497.5      0.31148E-01
    7517.5      0.31993E-01
    7537.5      0.32851E-01
    7557.6      0.33724E-01
    7577.6      0.34610E-01
    7597.6      0.35511E-01
    7617.6      0.36425E-01
    7637.6      0.37353E-01
    7657.7      0.38295E-01
    7677.7      0.39251E-01
    7697.7      0.40221E-01
    7717.7      0.41206E-01
    7737.7      0.42204E-01
    7757.8      0.43216E-01
    7777.8      0.44241E-01
    7797.8      0.45281E-01
    7817.8      0.46335E-01
    7837.8      0.47402E-01
    7857.9      0.48482E-01
    7877.9      0.49577E-01
    7897.9      0.50685E-01
    7917.9      0.51806E-01
    7937.9      0.52942E-01
    7958.0      0.54091E-01
    7978.0      0.55254E-01
    7998.0      0.56429E-01
    8018.0      0.57619E-01
    8038.0      0.58821E-01
    8058.1      0.60036E-01
    8078.1      0.61265E-01
    8098.1      0.62507E-01
    8118.1      0.63761E-01
    8138.1      0.65029E-01
    8158.2      0.66309E-01
    8178.2      0.67602E-01
    8198.2      0.68908E-01
    8218.2      0.70226E-01
    8238.2      0.71557E-01
    8258.3      0.72900E-01
    8278.3      0.74255E-01
    8298.3      0.75622E-01
    8318.3      0.77002E-01
    8338.3      0.78394E-01
    8358.4      0.79798E-01
    8378.4      0.81214E-01
    8398.4      0.82642E-01
    8418.4      0.84080E-01
    8438.4      0.85530E-01
    8458.5      0.86992E-01
    8478.5      0.88465E-01
    8498.5      0.89950E-01
    8518.5      0.91445E-01
    8538.5      0.92951E-01
    8558.6      0.94467E-01
    8578.6      0.95994E-01
    8598.6      0.97533E-01
    8618.6      0.99083E-01
    8638.6      0.10064
    8658.7      0.10221
    8678.7      0.10379
    8698.7      0.10538
    8718.7      0.10698
    8738.7      0.10859
    8758.8      0.11021
    8778.8      0.11184
    8798.8      0.11348
    8818.8      0.11512
    8838.8      0.11678
    8858.9      0.11844
    8878.9      0.12012
    8898.9      0.12180
    8918.9      0.12349
    8938.9      0.12519
    8959.0      0.12690
    8979.0      0.12861
    8999.0      0.13034
    9019.0      0.13207
    9039.0      0.13381
    9059.1      0.13556
    9079.1      0.13732
    9099.1      0.13908
    9119.1      0.14085
    9139.1      0.14263
    9159.2      0.14441
    9179.2      0.14621
    9199.2      0.14800
    9219.2      0.14981
    9239.2      0.15162
    9259.3      0.15344
    9279.3      0.15526
    9299.3      0.15709
    9319.3      0.15893
    9339.3      0.16077
    9359.4      0.16262
    9379.4      0.16447
    9399.4      0.16633
    9419.4      0.16820
    9439.4      0.17006
    9459.5      0.17194
    9479.5      0.17382
    9499.5      0.17571
    9519.5      0.17760
    9539.5      0.17949
    9559.6      0.18139
    9579.6      0.18329
    9599.6      0.18520
    9619.6      0.18712
    9639.6      0.18903
    9659.7      0.19095
    9679.7      0.19288
    9699.7      0.19480
    9719.7      0.19673
    9739.7      0.19867
    9759.8      0.20061
    9779.8      0.20255
    9799.8      0.20449
    9819.8      0.20644
    9839.8      0.20839
    9859.9      0.21034
    9879.9      0.21230
    9899.9      0.21426
    9919.9      0.21622
    9939.9      0.21818
    9960.0      0.22015
    9980.0      0.22211
    10000.      0.22408
